<?xml version="1.0" encoding="UTF-8"?>
<Bundle xmlns="http://hl7.org/fhir">
    <id value="4863d1fb-dc26-4680-bb35-018610d1749d"/>
    <meta>
        <profile value="https://fhir.kbv.de/StructureDefinition/KBV_PR_ERP_Bundle|1.1.0"/>
    </meta>
    <identifier>
        <system value="https://gematik.de/fhir/erp/NamingSystem/GEM_ERP_NS_PrescriptionId"/>
        <value value="900.100.000.000.023.70"/>
    </identifier>
    <type value="document"/>
    <timestamp value="2023-07-20T08:30:00Z"/>
    <entry>
        <fullUrl value="http://pvs.praxis.local/fhir/Composition/5877784c-ca07-4cc8-a58f-1517ddc24055"/>
        <resource>
            <Composition>
                <id value="5877784c-ca07-4cc8-a58f-1517ddc24055"/>
                <meta>
                    <profile value="https://fhir.kbv.de/StructureDefinition/KBV_PR_ERP_Composition|1.1.0"/>
                </meta>
                <extension url="https://fhir.kbv.de/StructureDefinition/KBV_EX_FOR_Legal_basis">
                    <valueCoding>
                        <system value="https://fhir.kbv.de/CodeSystem/KBV_CS_SFHIR_KBV_STATUSKENNZEICHEN"/>
                        <code value="00"/>
                    </valueCoding>
                </extension>
                <status value="final"/>
                <type>
                    <coding>
                        <system value="https://fhir.kbv.de/CodeSystem/KBV_CS_SFHIR_KBV_FORMULAR_ART"/>
                        <code value="e16A"/>
                    </coding>
                </type>
                <subject>
                    <reference value="Patient/fc0d145b-09b4-4af6-b477-935c1862ac7f"/>
                </subject>
                <date value="2023-07-20T08:00:00Z"/>
                <author>
                    <reference value="Practitioner/06c85cf6-ee4d-4889-9086-9b740421cc4e"/>
                    <type value="Practitioner"/>
                </author>
                <author>
                    <type value="Device"/>
                    <identifier>
                        <system value="https://fhir.kbv.de/NamingSystem/KBV_NS_FOR_Pruefnummer"/>
                        <value value="Y/400/2107/36/999"/>
                    </identifier>
                </author>
                <title value="elektronische Arzneimittelverordnung"/>
                <custodian>
                    <reference value="Organization/79eeec29-2497-47da-886a-717516f4709c"/>
                </custodian>
                <section>
                    <code>
                        <coding>
                            <system value="https://fhir.kbv.de/CodeSystem/KBV_CS_ERP_Section_Type"/>
                            <code value="Prescription"/>
                        </coding>
                    </code>
                    <entry>
                        <reference value="MedicationRequest/2979e8a3-352e-4d17-8e06-b356666e4daf"/>
                    </entry>
                </section>
                <section>
                    <code>
                        <coding>
                            <system value="https://fhir.kbv.de/CodeSystem/KBV_CS_ERP_Section_Type"/>
                            <code value="Coverage"/>
                        </coding>
                    </code>
                    <entry>
                        <reference value="Coverage/69b3bbb6-2d37-4676-baf1-af97ba2ba4ad"/>
                    </entry>
                </section>
            </Composition>
        </resource>
    </entry>
    <entry>
        <fullUrl value="http://pvs.praxis.local/fhir/MedicationRequest/2979e8a3-352e-4d17-8e06-b356666e4daf"/>
        <resource>
            <MedicationRequest>
                <id value="2979e8a3-352e-4d17-8e06-b356666e4daf"/>
                <meta>
                    <profile value="https://fhir.kbv.de/StructureDefinition/KBV_PR_ERP_Prescription|1.1.0"/>
                </meta>
                <extension url="https://fhir.kbv.de/StructureDefinition/KBV_EX_FOR_StatusCoPayment">
                    <valueCoding>
                        <system value="https://fhir.kbv.de/CodeSystem/KBV_CS_FOR_StatusCoPayment"/>
                        <code value="1"/>
                    </valueCoding>
                </extension>
                <extension url="https://fhir.kbv.de/StructureDefinition/KBV_EX_ERP_EmergencyServicesFee">
                    <valueBoolean value="false"/>
                </extension>
                <extension url="https://fhir.kbv.de/StructureDefinition/KBV_EX_ERP_BVG">
                    <valueBoolean value="false"/>
                </extension>
                <extension url="https://fhir.kbv.de/StructureDefinition/KBV_EX_ERP_Multiple_Prescription">
                    <extension url="Kennzeichen">
                        <valueBoolean value="false"/>
                    </extension>
                </extension>
                <status value="active"/>
                <intent value="order"/>
                <medicationReference>
                    <reference value="Medication/0d93504e-c6a7-47c1-8ad5-b0c5cf1b8920"/>
                </medicationReference>
                <subject>
                    <reference value="Patient/fc0d145b-09b4-4af6-b477-935c1862ac7f"/>
                </subject>
                <authoredOn value="2023-07-20"/>
                <requester>
                    <reference value="Practitioner/06c85cf6-ee4d-4889-9086-9b740421cc4e"/>
                </requester>
                <insurance>
                    <reference value="Coverage/69b3bbb6-2d37-4676-baf1-af97ba2ba4ad"/>
                </insurance>
                <dispenseRequest>
                    <quantity>
                        <value value="1"/>
                        <system value="http://unitsofmeasure.org"/>
                        <code value="{Package}"/>
                    </quantity>
                </dispenseRequest>
                <substitution>
                    <allowedBoolean value="true"/>
                </substitution>
            </MedicationRequest>
        </resource>
    </entry>
    <entry>
        <fullUrl value="http://pvs.praxis.local/fhir/Medication/0d93504e-c6a7-47c1-8ad5-b0c5cf1b8920"/>
        <resource>
            <Medication>
                <id value="0d93504e-c6a7-47c1-8ad5-b0c5cf1b8920"/>
                <meta>
                    <profile value="https://fhir.kbv.de/StructureDefinition/KBV_PR_ERP_Medication_FreeText|1.1.0"/>
                </meta>
                <extension url="https://fhir.kbv.de/StructureDefinition/KBV_EX_ERP_Medication_Category">
                    <valueCoding>
                        <system value="https://fhir.kbv.de/CodeSystem/KBV_CS_ERP_Medication_Category"/>
                        <code value="00"/>
                    </valueCoding>
                </extension>
                <extension url="https://fhir.kbv.de/StructureDefinition/KBV_EX_ERP_Medication_Vaccine">
                    <valueBoolean value="false"/>
                </extension>
                <code>
                    <coding>
                        <system value="https://fhir.kbv.de/CodeSystem/KBV_CS_ERP_Medication_Type"/>
                        <code value="freitext"/>
                    </coding>
                    <text value="Apothekenbeleg"/>
                </code>
            </Medication>
        </resource>
    </entry>
    <entry>
        <fullUrl value="http://pvs.praxis.local/fhir/Patient/fc0d145b-09b4-4af6-b477-935c1862ac7f"/>
        <resource>
            <Patient>
                <id value="fc0d145b-09b4-4af6-b477-935c1862ac7f"/>
                <meta>
                    <profile value="https://fhir.kbv.de/StructureDefinition/KBV_PR_FOR_Patient|1.1.0"/>
                </meta>
                <identifier>
                    <type>
                        <coding>
                            <system value="http://fhir.de/CodeSystem/identifier-type-de-basis"/>
                            <code value="GKV"/>
                        </coding>
                    </type>
                    <system value="http://fhir.de/sid/gkv/kvid-10"/>
                    <value value="S040464113"/>
                </identifier>
                <name>
                    <use value="official"/>
                    <family value="Nachname">
                        <extension url="http://hl7.org/fhir/StructureDefinition/humanname-own-name">
                            <valueString value="Nachname"/>
                        </extension>
                    </family>
                    <given value="Vorname"/>
                </name>
                <birthDate value="1980-10-31"/>
                <!--birthDate value="1980"/-->
                <!--birthDate>
                    <extension url="http://hl7.org/fhir/StructureDefinition/data-absent-reason">
                        <valueCode value="unknown"/>
                    </extension>
                </birthDate-->
                <address>
                    <type value="both"/>
                    <line value="Strasse_und_Hausnummer 0815">
                        <extension url="http://hl7.org/fhir/StructureDefinition/iso21090-ADXP-houseNumber">
                            <valueString value="0815"/>
                        </extension>
                        <extension url="http://hl7.org/fhir/StructureDefinition/iso21090-ADXP-streetName">
                            <valueString value="Strasse_und_Hausnummer"/>
                        </extension>
                    </line>
                    <city value="Wohnort"/>
                    <postalCode value="12345"/>
                    <country value="D"/>
                </address>
            </Patient>
        </resource>
    </entry>
    <entry>
        <fullUrl value="http://pvs.praxis.local/fhir/Practitioner/06c85cf6-ee4d-4889-9086-9b740421cc4e"/>
        <resource>
            <Practitioner>
                <id value="06c85cf6-ee4d-4889-9086-9b740421cc4e"/>
                <meta>
                    <profile value="https://fhir.kbv.de/StructureDefinition/KBV_PR_FOR_Practitioner|1.1.0"/>
                </meta>
                <identifier>
                    <type>
                        <coding>
                            <system value="http://terminology.hl7.org/CodeSystem/v2-0203"/>
                            <code value="LANR"/>
                        </coding>
                    </type>
                    <system value="https://fhir.kbv.de/NamingSystem/KBV_NS_Base_ANR"/>
                    <value value="000000000"/>
                </identifier>
                <name>
                    <use value="official"/>
                    <family value="Apotheker">
                        <extension url="http://hl7.org/fhir/StructureDefinition/humanname-own-name">
                            <valueString value="Apotheker"/>
                        </extension>
                    </family>
                    <given value="Apothekerin"/>
                </name>
                <qualification>
                    <code>
                        <coding>
                            <system value="https://fhir.kbv.de/CodeSystem/KBV_CS_FOR_Qualification_Type"/>
                            <code value="00"/>
                        </coding>
                    </code>
                </qualification>
                <qualification>
                    <code>
                        <coding>
                            <system value="https://fhir.kbv.de/CodeSystem/KBV_CS_FOR_Berufsbezeichnung"/>
                            <code value="Berufsbezeichnung"/>
                        </coding>
                        <text value="Apotheker /Fachapotheker"/>
                    </code>
                </qualification>
            </Practitioner>
        </resource>
    </entry>
    <entry>
        <fullUrl value="http://pvs.praxis.local/fhir/Organization/79eeec29-2497-47da-886a-717516f4709c"/>
        <resource>
            <Organization>
                <id value="79eeec29-2497-47da-886a-717516f4709c"/>
                <meta>
                    <profile value="https://fhir.kbv.de/StructureDefinition/KBV_PR_FOR_Organization|1.1.0"/>
                </meta>
                <identifier>
                    <type>
                        <coding>
                            <system value="http://terminology.hl7.org/CodeSystem/v2-0203"/>
                            <code value="BSNR"/>
                        </coding>
                    </type>
                    <system value="https://fhir.kbv.de/NamingSystem/KBV_NS_Base_BSNR"/>
                    <value value="000000000"/>
                </identifier>
                <telecom>
                    <system value="phone"/>
                    <value value="0815 4711"/>
                </telecom>
                <address>
                    <type value="both"/>
                    <line value="Strasse_und_Hausnummer 0815"/>
                    <city value="Wohnort"/>
                </address>
            </Organization>
        </resource>
    </entry>
    <entry>
        <fullUrl value="http://pvs.praxis.local/fhir/Coverage/69b3bbb6-2d37-4676-baf1-af97ba2ba4ad"/>
        <resource>
            <Coverage>
                <id value="69b3bbb6-2d37-4676-baf1-af97ba2ba4ad"/>
                <meta>
                    <profile value="https://fhir.kbv.de/StructureDefinition/KBV_PR_FOR_Coverage|1.1.0"/>
                </meta>
                <extension url="http://fhir.de/StructureDefinition/gkv/besondere-personengruppe">
                    <valueCoding>
                        <system value="https://fhir.kbv.de/CodeSystem/KBV_CS_SFHIR_KBV_PERSONENGRUPPE"/>
                        <code value="00"/>
                    </valueCoding>
                </extension>
                <extension url="http://fhir.de/StructureDefinition/gkv/dmp-kennzeichen">
                    <valueCoding>
                        <system value="https://fhir.kbv.de/CodeSystem/KBV_CS_SFHIR_KBV_DMP"/>
                        <code value="00"/>
                    </valueCoding>
                </extension>
                <extension url="http://fhir.de/StructureDefinition/gkv/versichertenart">
                    <valueCoding>
                        <system value="https://fhir.kbv.de/CodeSystem/KBV_CS_SFHIR_KBV_VERSICHERTENSTATUS"/>
                        <code value="1"/>
                    </valueCoding>
                </extension>
                <status value="active"/>
                <type>
                    <coding>
                        <system value="http://fhir.de/CodeSystem/versicherungsart-de-basis"/>
                        <code value="GKV"/>
                    </coding>
                </type>
                <beneficiary>
                    <reference value="Patient/fc0d145b-09b4-4af6-b477-935c1862ac7f"/>
                </beneficiary>
                <payor>
                    <identifier>
                        <system value="http://fhir.de/sid/arge-ik/iknr"/>
                        <value value="104212059"/>
                    </identifier>
                    <display value="AOK Rheinland/Hamburg"/>
                </payor>
            </Coverage>
        </resource>
    </entry>
</Bundle>