<Bundle xmlns="http://hl7.org/fhir">
	<id value="fcfd2ac4-b7b3-dae0-b1fc-000000012101"/>
	<meta>
		<lastUpdated value="2021-11-12T11:09:36Z"/>
		<profile value="https://fhir.kbv.de/StructureDefinition/KBV_PR_ERP_Bundle|1.0.2"/>
	</meta>
	<identifier>
		<system value="https://gematik.de/fhir/NamingSystem/PrescriptionID"/>
		<value value="160.000.074.296.784.88"/>
	</identifier>
	<type value="document"/>
	<timestamp value="2021-11-12T11:09:36Z"/>
	<entry>
		<fullUrl value="http://pvs.praxis.local/fhir/f3735d83-a9ca-411e-8803-e6711c12e9b6"/>
		<resource>
			<Composition xmlns="http://hl7.org/fhir">
				<id value="f3735d83-a9ca-411e-8803-e6711c12e9b6"/>
				<meta>
					<profile value="https://fhir.kbv.de/StructureDefinition/KBV_PR_ERP_Composition|1.0.2"/>
				</meta>
				<extension url="https://fhir.kbv.de/StructureDefinition/KBV_EX_FOR_PKV_Tariff">
                    <valueCoding>
                        <system value="https://fhir.kbv.de/CodeSystem/KBV_CS_SFHIR_KBV_PKV_TARIFF" />
                        <code value="04" />
                    </valueCoding>
                </extension>
				<status value="final"/>
				<type>
					<coding>
						<system value="https://fhir.kbv.de/CodeSystem/KBV_CS_SFHIR_KBV_FORMULAR_ART"/>
						<code value="e16A"/>
					</coding>
				</type>
				<subject>
					<reference value="Patient/1e07aca0-7833-4d80-9ac8-a10000000021"/>
				</subject>
				<date value="2021-11-12T11:09:36Z"/>
				<author>
					<reference value="Practitioner/1e07aca0-7833-4d80-9ac8-b20000000004"/>
					<type value="Practitioner"/>
				</author>
				<author>
					<type value="Device"/>
					<identifier>
						<system value="https://fhir.kbv.de/NamingSystem/KBV_NS_FOR_Pruefnummer"/>
						<value value="Y/400/2110/36/251"/>
					</identifier>
				</author>
				<title value="elektronische Arzneimittelverordnung"/>
				<custodian>
					<reference value="Organization/1e07aca0-7833-4d80-9ac8-d10000000007"/>
				</custodian>
				<section>
					<code>
						<coding>
							<system value="https://fhir.kbv.de/CodeSystem/KBV_CS_ERP_Section_Type"/>
							<code value="Prescription"/>
						</coding>
					</code>
					<entry>
						<reference value="MedicationRequest/896c1622-f9a7-4c15-a2ee-2395b68e0470"/>
					</entry>
				</section>
				<section>
					<code>
						<coding>
							<system value="https://fhir.kbv.de/CodeSystem/KBV_CS_ERP_Section_Type"/>
							<code value="Coverage"/>
						</coding>
					</code>
					<entry>
						<reference value="Coverage/1e07aca0-7833-4d80-9ac8-f100062b4b95"/>
					</entry>
				</section>
			</Composition>
		</resource>
	</entry>
	<entry>
		<fullUrl value="http://pvs.praxis.local/fhir/896c1622-f9a7-4c15-a2ee-2395b68e0470"/>
		<resource>
			<MedicationRequest xmlns="http://hl7.org/fhir">
				<id value="896c1622-f9a7-4c15-a2ee-2395b68e0470"/>
				<meta>
					<profile value="https://fhir.kbv.de/StructureDefinition/KBV_PR_ERP_Prescription|1.0.2"/>
				</meta>
				<extension url="https://fhir.kbv.de/StructureDefinition/KBV_EX_ERP_StatusCoPayment">
					<valueCoding>
						<system value="https://fhir.kbv.de/CodeSystem/KBV_CS_ERP_StatusCoPayment"/>
						<code value="0"/>
					</valueCoding>
				</extension>
				<extension url="https://fhir.kbv.de/StructureDefinition/KBV_EX_ERP_EmergencyServicesFee">
					<valueBoolean value="false"/>
				</extension>
				<extension url="https://fhir.kbv.de/StructureDefinition/KBV_EX_ERP_BVG">
					<valueBoolean value="false"/>
				</extension>
				<extension url="https://fhir.kbv.de/StructureDefinition/KBV_EX_ERP_Multiple_Prescription">
					<extension url="Kennzeichen">
						<valueBoolean value="false"/>
					</extension>
				</extension>
				<status value="active"/>
				<intent value="order"/>
				<medicationReference>
					<reference value="Medication/1e07aca0-7833-4d80-9ac8-e10000000059"/>
				</medicationReference>
				<subject>
					<reference value="Patient/1e07aca0-7833-4d80-9ac8-a10000000021"/>
				</subject>
				<authoredOn value="2022-01-25"/>
				<requester>
					<reference value="Practitioner/1e07aca0-7833-4d80-9ac8-b20000000004"/>
				</requester>
				<insurance>
					<reference value="Coverage/1e07aca0-7833-4d80-9ac8-f100062b4b95"/>
				</insurance>
				<dosageInstruction>
					<extension url="https://fhir.kbv.de/StructureDefinition/KBV_EX_ERP_DosageFlag">
						<valueBoolean value="true"/>
					</extension>
					<text value="½-0-½-0 Stück"/>
				</dosageInstruction>
				<dispenseRequest>
					<quantity>
						<value value="1"/>
						<system value="http://unitsofmeasure.org"/>
						<code value="{Package}"/>
					</quantity>
				</dispenseRequest>
				<substitution>
					<allowedBoolean value="true"/>
				</substitution>
			</MedicationRequest>
		</resource>
	</entry>
	<entry>
		<fullUrl value="http://pvs.praxis.local/fhir/1e07aca0-7833-4d80-9ac8-a10000000021"/>
		<resource>
			<Patient xmlns="http://hl7.org/fhir">
				<id value="1e07aca0-7833-4d80-9ac8-a10000000021"/>
				<meta>
					<profile value="https://fhir.kbv.de/StructureDefinition/KBV_PR_FOR_Patient|1.0.3"/>
				</meta>
				<identifier>
					<type>
						<coding>
							<system value="http://fhir.de/CodeSystem/identifier-type-de-basis"/>
							<code value="PKV"/>
						</coding>
					</type>
					<value value="K030182367" />
					<assigner>
                        <reference value="Organization/4a834cd3-9237-957f-44b3-f87647692762" />
                        <display value="Bayerische Beamtenkrankenkasse"/>
                    </assigner>
				</identifier>
				<name>
					<use value="official"/>
					<family value="Frhr. Gr in't Werner">
						<extension url="http://fhir.de/StructureDefinition/humanname-namenszusatz">
							<valueString value="Frhr. Gr"/>
						</extension>
						<extension url="http://hl7.org/fhir/StructureDefinition/humanname-own-name">
							<valueString value="Werner"/>
						</extension>
						<extension url="http://hl7.org/fhir/StructureDefinition/humanname-own-prefix">
							<valueString value="in't"/>
						</extension>
					</family>
					<given value="Viktor"/>
				</name>
				<birthDate value="1974-05-23"/>
				<address>
					<type value="both"/>
					<line value="Hauptstraße 123456789">
						<extension url="http://hl7.org/fhir/StructureDefinition/iso21090-ADXP-streetName">
							<valueString value="Hauptstraße"/>
						</extension>
						<extension url="http://hl7.org/fhir/StructureDefinition/iso21090-ADXP-houseNumber">
							<valueString value="123456789"/>
						</extension>
					</line>
					<line value="Hinterhof">
						<extension url="http://hl7.org/fhir/StructureDefinition/iso21090-ADXP-additionalLocator">
							<valueString value="Hinterhof"/>
						</extension>
					</line>
					<city value="Potsdam"/>
					<postalCode value="14469"/>
					<country value="D"/>
				</address>
			</Patient>
		</resource>
	</entry>
	<entry>
		<fullUrl value="http://pvs.praxis.local/fhir/1e07aca0-7833-4d80-9ac8-f100062b4b95"/>
		<resource>
			<Coverage xmlns="http://hl7.org/fhir">
				<id value="1e07aca0-7833-4d80-9ac8-f100062b4b95"/>
				<meta>
					<profile value="https://fhir.kbv.de/StructureDefinition/KBV_PR_FOR_Coverage|1.0.3"/>
				</meta>
				<extension url="http://fhir.de/StructureDefinition/gkv/besondere-personengruppe">
					<valueCoding>
						<system value="https://fhir.kbv.de/CodeSystem/KBV_CS_SFHIR_KBV_PERSONENGRUPPE"/>
						<code value="00"/>
					</valueCoding>
				</extension>
				<extension url="http://fhir.de/StructureDefinition/gkv/dmp-kennzeichen">
					<valueCoding>
						<system value="https://fhir.kbv.de/CodeSystem/KBV_CS_SFHIR_KBV_DMP"/>
						<code value="00"/>
					</valueCoding>
				</extension>
				<extension url="http://fhir.de/StructureDefinition/gkv/versichertenart">
					<valueCoding>
						<system value="https://fhir.kbv.de/CodeSystem/KBV_CS_SFHIR_KBV_VERSICHERTENSTATUS"/>
						<code value="1"/>
					</valueCoding>
				</extension>
				<status value="active"/>
				<type>
					<coding>
						<system value="http://fhir.de/CodeSystem/versicherungsart-de-basis"/>
						<code value="PKV"/>
					</coding>
				</type>
				<beneficiary>
					<reference value="Patient/1e07aca0-7833-4d80-9ac8-a10000000021"/>
				</beneficiary>
				<payor>
					<identifier>
						<system value="http://fhir.de/NamingSystem/arge-ik/iknr"/>
						<value value="168141347"/>
					</identifier>
					<display value="Bayerische Beamtenkrankenkasse"/>
				</payor>
			</Coverage>
		</resource>
	</entry>
	<entry>
		<fullUrl value="http://pvs.praxis.local/fhir/1e07aca0-7833-4d80-9ac8-e10000000059"/>
		<resource>
			<Medication xmlns="http://hl7.org/fhir">
				<id value="1e07aca0-7833-4d80-9ac8-e10000000059"/>
				<meta>
					<profile value="https://fhir.kbv.de/StructureDefinition/KBV_PR_ERP_Medication_PZN|1.0.2"/>
				</meta>
				<extension url="https://fhir.kbv.de/StructureDefinition/KBV_EX_ERP_Medication_Category">
					<valueCoding>
						<system value="https://fhir.kbv.de/CodeSystem/KBV_CS_ERP_Medication_Category"/>
						<code value="00"/>
					</valueCoding>
				</extension>
				<extension url="https://fhir.kbv.de/StructureDefinition/KBV_EX_ERP_Medication_Vaccine">
					<valueBoolean value="false"/>
				</extension>
				<extension url="http://fhir.de/StructureDefinition/normgroesse">
					<valueCode value="N1"/>
				</extension>
				<code>
					<coding>
						<system value="http://fhir.de/CodeSystem/ifa/pzn"/>
						<code value="13568558"/>
					</coding>
					<text value="ENALAPRIL 5-1A Pharma Tabletten"/>
				</code>
				<form>
					<coding>
						<system value="https://fhir.kbv.de/CodeSystem/KBV_CS_SFHIR_KBV_DARREICHUNGSFORM"/>
						<code value="TAB"/>
					</coding>
				</form>
				<amount>
					<numerator>
						<value value="30"/>
						<unit value="St"/>
					</numerator>
					<denominator>
						<value value="1"/>
					</denominator>
				</amount>
			</Medication>
		</resource>
	</entry>
	<entry>
		<fullUrl value="http://pvs.praxis.local/fhir/1e07aca0-7833-4d80-9ac8-b20000000004"/>
		<resource>
			<Practitioner xmlns="http://hl7.org/fhir">
				<id value="1e07aca0-7833-4d80-9ac8-b20000000004"/>
				<meta>
					<profile value="https://fhir.kbv.de/StructureDefinition/KBV_PR_FOR_Practitioner|1.0.3"/>
				</meta>
				<identifier>
					<type>
						<coding>
							<system value="http://terminology.hl7.org/CodeSystem/v2-0203"/>
							<code value="LANR"/>
						</coding>
					</type>
					<system value="https://fhir.kbv.de/NamingSystem/KBV_NS_Base_ANR"/>
					<value value="384769701"/>
				</identifier>
				<name>
					<use value="official"/>
					<family value="More">
						<extension url="http://hl7.org/fhir/StructureDefinition/humanname-own-name">
							<valueString value="More"/>
						</extension>
					</family>
					<given value="Annie"/>
					<prefix value="Dr.">
						<extension url="http://hl7.org/fhir/StructureDefinition/iso21090-EN-qualifier">
							<valueCode value="AC"/>
						</extension>
					</prefix>
				</name>
				<qualification>
					<code>
						<coding>
							<system value="https://fhir.kbv.de/CodeSystem/KBV_CS_FOR_Qualification_Type"/>
							<code value="00"/>
						</coding>
					</code>
				</qualification>
				<qualification>
					<code>
						<text value="Fachärztin für Allgemeinmedizin"/>
					</code>
				</qualification>
			</Practitioner>
		</resource>
	</entry>
	<entry>
		<fullUrl value="http://pvs.praxis.local/fhir/1e07aca0-7833-4d80-9ac8-d10000000007"/>
		<resource>
			<Organization xmlns="http://hl7.org/fhir">
				<id value="1e07aca0-7833-4d80-9ac8-d10000000007"/>
				<meta>
					<profile value="https://fhir.kbv.de/StructureDefinition/KBV_PR_FOR_Organization|1.0.3"/>
				</meta>
				<identifier>
					<type>
						<coding>
							<system value="http://terminology.hl7.org/CodeSystem/v2-0203"/>
							<code value="BSNR"/>
						</coding>
					</type>
					<system value="https://fhir.kbv.de/NamingSystem/KBV_NS_Base_BSNR"/>
					<value value="241234601"/>
				</identifier>
				<name value="Praxis Annie More"/>
				<telecom>
					<system value="phone"/>
					<value value="0211 / 1111111"/>
				</telecom>
				<telecom>
					<system value="fax"/>
					<value value="0211 / 2222222"/>
				</telecom>
				<telecom>
					<system value="email"/>
					<value value="AM@Testpraxis.de"/>
				</telecom>
				<address>
					<type value="both"/>
					<line value="Musterstr. 1">
						<extension url="http://hl7.org/fhir/StructureDefinition/iso21090-ADXP-streetName">
							<valueString value="Musterstr."/>
						</extension>
						<extension url="http://hl7.org/fhir/StructureDefinition/iso21090-ADXP-houseNumber">
							<valueString value="1"/>
						</extension>
					</line>
					<city value="Düsseldorf"/>
					<postalCode value="40474"/>
					<country value="D"/>
				</address>
			</Organization>
		</resource>
	</entry>
	<entry>
        <fullUrl value="http://pvs.praxis.local/fhir/Organization/4a834cd3-9237-957f-44b3-f87647692762" />
        <resource>
            <Organization>
                <id value="4a834cd3-9237-957f-44b3-f87647692762" />
                <meta>
                    <profile value="https://fhir.kbv.de/StructureDefinition/KBV_PR_FOR_Organization|1.0.3" />
                </meta>
                <identifier>
                    <type>
                        <coding>
                            <system value="http://terminology.hl7.org/CodeSystem/v2-0203" />
                            <code value="XX" />
                        </coding>
                    </type>
                    <system value="http://fhir.de/NamingSystem/arge-ik/iknr" />
                    <value value="168141347" />
                </identifier>
                <name value="Bayerische Beamtenkrankenkasse" />
                <telecom>
                    <system value="phone" />
                    <value value="0301111111" />
                </telecom>
            </Organization>
        </resource>
    </entry>
</Bundle>
