<Bundle xmlns="http://hl7.org/fhir">
	<id value="cd0b3572-5c54-497d-b417-b3db87d761e7"/>
	<meta>
		<profile value="https://fhir.kbv.de/StructureDefinition/KBV_PR_ERP_Bundle|1.0.2"/>
	</meta>
	<identifier>
		<system value="https://gematik.de/fhir/NamingSystem/PrescriptionID"/>
		<value value="160.000.074.296.647.14"/>
	</identifier>
	<type value="document"/>
	<timestamp value="2021-11-12T10:25:59.685+01:00"/>
	<entry>
		<fullUrl value="http://pvs.praxis.local/fhir/13054b47-be33-48f7-aee1-d3b555ed53a7"/>
		<resource>
			<Composition xmlns="http://hl7.org/fhir">
				<id value="13054b47-be33-48f7-aee1-d3b555ed53a7"/>
				<meta>
					<profile value="https://fhir.kbv.de/StructureDefinition/KBV_PR_ERP_Composition|1.0.2"/>
				</meta>
				<extension url="https://fhir.kbv.de/StructureDefinition/KBV_EX_FOR_PKV_Tariff">
                    <valueCoding>
                        <system value="https://fhir.kbv.de/CodeSystem/KBV_CS_SFHIR_KBV_PKV_TARIFF" />
                        <code value="04" />
                    </valueCoding>
                </extension>
				<status value="final"/>
				<type>
					<coding>
						<system value="https://fhir.kbv.de/CodeSystem/KBV_CS_SFHIR_KBV_FORMULAR_ART"/>
						<code value="e16A"/>
					</coding>
				</type>
				<subject>
					<reference value="Patient/406ab579-59d6-43fc-91f6-8b4cc31e2957"/>
				</subject>
				<date value="2021-11-12T10:25:59+01:00"/>
				<author>
					<reference value="Practitioner/a6555d02-719d-458f-a9a8-baf58f4a298a"/>
					<type value="Practitioner"/>
				</author>
				<author>
					<type value="Device"/>
					<identifier>
						<system value="https://fhir.kbv.de/NamingSystem/KBV_NS_FOR_Pruefnummer"/>
						<value value="Y/400/1910/36/023"/>
					</identifier>
				</author>
				<title value="elektronische Arzneimittelverordnung"/>
				<custodian>
					<reference value="Organization/f6b1166a-406d-4243-8b58-b09c044724a2"/>
				</custodian>
				<section>
					<code>
						<coding>
							<system value="https://fhir.kbv.de/CodeSystem/KBV_CS_ERP_Section_Type"/>
							<code value="Prescription"/>
						</coding>
					</code>
					<entry>
						<reference value="MedicationRequest/4962564c-0760-4d9e-aaeb-138f05c10a2e"/>
					</entry>
				</section>
				<section>
					<code>
						<coding>
							<system value="https://fhir.kbv.de/CodeSystem/KBV_CS_ERP_Section_Type"/>
							<code value="Coverage"/>
						</coding>
					</code>
					<entry>
						<reference value="Coverage/9f6eef2a-2234-482a-8044-9daf0858a444"/>
					</entry>
				</section>
			</Composition>
		</resource>
	</entry>
	<entry>
		<fullUrl value="http://pvs.praxis.local/fhir/a6555d02-719d-458f-a9a8-baf58f4a298a"/>
		<resource>
			<Practitioner xmlns="http://hl7.org/fhir">
				<id value="a6555d02-719d-458f-a9a8-baf58f4a298a"/>
				<meta>
					<profile value="https://fhir.kbv.de/StructureDefinition/KBV_PR_FOR_Practitioner|1.0.3"/>
				</meta>
				<identifier>
					<use value="official"/>
					<type>
						<coding>
							<system value="http://terminology.hl7.org/CodeSystem/v2-0203"/>
							<code value="LANR"/>
						</coding>
					</type>
					<system value="https://fhir.kbv.de/NamingSystem/KBV_NS_Base_ANR"/>
					<value value="384769701"/>
				</identifier>
				<name>
					<use value="official"/>
					<family value="Mustermann">
						<extension url="http://hl7.org/fhir/StructureDefinition/humanname-own-name">
							<valueString value="Mustermann"/>
						</extension>
					</family>
					<given value="Max"/>
					<prefix value="Dr. med.">
						<extension url="http://hl7.org/fhir/StructureDefinition/iso21090-EN-qualifier">
							<valueCode value="AC"/>
						</extension>
					</prefix>
				</name>
				<qualification>
					<code>
						<coding>
							<system value="https://fhir.kbv.de/CodeSystem/KBV_CS_FOR_Qualification_Type"/>
							<code value="00"/>
						</coding>
					</code>
				</qualification>
				<qualification>
					<code>
						<text value="Allgemeinmedizin"/>
					</code>
				</qualification>
			</Practitioner>
		</resource>
	</entry>
	<entry>
		<fullUrl value="http://pvs.praxis.local/fhir/f6b1166a-406d-4243-8b58-b09c044724a2"/>
		<resource>
			<Organization xmlns="http://hl7.org/fhir">
				<id value="f6b1166a-406d-4243-8b58-b09c044724a2"/>
				<meta>
					<profile value="https://fhir.kbv.de/StructureDefinition/KBV_PR_FOR_Organization|1.0.3"/>
				</meta>
				<identifier>
					<use value="official"/>
					<type>
						<coding>
							<system value="http://terminology.hl7.org/CodeSystem/v2-0203"/>
							<code value="BSNR"/>
						</coding>
					</type>
					<system value="https://fhir.kbv.de/NamingSystem/KBV_NS_Base_BSNR"/>
					<value value="181111111"/>
				</identifier>
				<name value="Praxis für Psychiatrie und Psychotherapie"/>
				<telecom>
					<system value="phone"/>
					<value value="030369258147"/>
				</telecom>
				<address>
					<type value="both"/>
					<line value="Herbert-Lewin-Platz 2">
						<extension url="http://hl7.org/fhir/StructureDefinition/iso21090-ADXP-streetName">
							<valueString value="Herbert-Lewin-Platz"/>
						</extension>
						<extension url="http://hl7.org/fhir/StructureDefinition/iso21090-ADXP-houseNumber">
							<valueString value="2"/>
						</extension>
					</line>
					<city value="Berlin"/>
					<postalCode value="10623"/>
					<country value="D"/>
				</address>
			</Organization>
		</resource>
	</entry>
	<entry>
		<fullUrl value="http://pvs.praxis.local/fhir/410463ac-8118-4fb7-a1b3-c444283256ec"/>
		<resource>
			<Medication xmlns="http://hl7.org/fhir">
				<id value="410463ac-8118-4fb7-a1b3-c444283256ec"/>
				<meta>
					<profile value="https://fhir.kbv.de/StructureDefinition/KBV_PR_ERP_Medication_FreeText|1.0.2"/>
				</meta>
				<extension url="https://fhir.kbv.de/StructureDefinition/KBV_EX_ERP_Medication_Category">
					<valueCoding>
						<system value="https://fhir.kbv.de/CodeSystem/KBV_CS_ERP_Medication_Category"/>
						<code value="00"/>
					</valueCoding>
				</extension>
				<extension url="https://fhir.kbv.de/StructureDefinition/KBV_EX_ERP_Medication_Vaccine">
					<valueBoolean value="false"/>
				</extension>
				<code>
					<coding>
						<system value="https://fhir.kbv.de/CodeSystem/KBV_CS_ERP_Medication_Type"/>
						<code value="freitext"/>
					</coding>
					<text value="Novaminsulfon 500mg Licht Zentiva Pha 100ML TEI N3"/>
				</code>
			</Medication>
		</resource>
	</entry>
	<entry>
		<fullUrl value="http://pvs.praxis.local/fhir/4962564c-0760-4d9e-aaeb-138f05c10a2e"/>
		<resource>
			<MedicationRequest xmlns="http://hl7.org/fhir">
				<id value="4962564c-0760-4d9e-aaeb-138f05c10a2e"/>
				<meta>
					<profile value="https://fhir.kbv.de/StructureDefinition/KBV_PR_ERP_Prescription|1.0.2"/>
				</meta>
				<extension url="https://fhir.kbv.de/StructureDefinition/KBV_EX_ERP_StatusCoPayment">
					<valueCoding>
						<system value="https://fhir.kbv.de/CodeSystem/KBV_CS_ERP_StatusCoPayment"/>
						<code value="0"/>
					</valueCoding>
				</extension>
				<extension url="https://fhir.kbv.de/StructureDefinition/KBV_EX_ERP_EmergencyServicesFee">
					<valueBoolean value="false"/>
				</extension>
				<extension url="https://fhir.kbv.de/StructureDefinition/KBV_EX_ERP_BVG">
					<valueBoolean value="false"/>
				</extension>
				<extension url="https://fhir.kbv.de/StructureDefinition/KBV_EX_ERP_Accident">
					<extension url="unfallkennzeichen">
						<valueCoding>
							<system value="https://fhir.kbv.de/CodeSystem/KBV_CS_FOR_Ursache_Type"/>
							<code value="1"/>
						</valueCoding>
					</extension>
					<extension url="unfalltag">
						<valueDate value="2021-11-12"/>
					</extension>
				</extension>
				<extension url="https://fhir.kbv.de/StructureDefinition/KBV_EX_ERP_Multiple_Prescription">
					<extension url="Kennzeichen">
						<valueBoolean value="false"/>
					</extension>
				</extension>
				<status value="active"/>
				<intent value="order"/>
				<medicationReference>
					<reference value="Medication/410463ac-8118-4fb7-a1b3-c444283256ec"/>
				</medicationReference>
				<subject>
					<reference value="Patient/406ab579-59d6-43fc-91f6-8b4cc31e2957"/>
				</subject>
				<authoredOn value="2022-01-25"/>
				<requester>
					<reference value="Practitioner/a6555d02-719d-458f-a9a8-baf58f4a298a"/>
				</requester>
				<insurance>
					<reference value="Coverage/9f6eef2a-2234-482a-8044-9daf0858a444"/>
				</insurance>
				<dosageInstruction>
					<extension url="https://fhir.kbv.de/StructureDefinition/KBV_EX_ERP_DosageFlag">
						<valueBoolean value="true"/>
					</extension>
					<text value="bist zu 4mal täglich je 20-40 Tropfen"/>
				</dosageInstruction>
				<dispenseRequest>
					<quantity>
						<value value="1"/>
						<system value="http://unitsofmeasure.org"/>
						<code value="{Package}"/>
					</quantity>
				</dispenseRequest>
				<substitution>
					<allowedBoolean value="true"/>
				</substitution>
			</MedicationRequest>
		</resource>
	</entry>
	<entry>
		<fullUrl value="http://pvs.praxis.local/fhir/406ab579-59d6-43fc-91f6-8b4cc31e2957"/>
		<resource>
			<Patient xmlns="http://hl7.org/fhir">
				<id value="406ab579-59d6-43fc-91f6-8b4cc31e2957"/>
				<meta>
					<profile value="https://fhir.kbv.de/StructureDefinition/KBV_PR_FOR_Patient|1.0.3"/>
				</meta>
				<identifier>
					<type>
						<coding>
							<system value="http://fhir.de/CodeSystem/identifier-type-de-basis"/>
							<code value="PKV"/>
						</coding>
					</type>
					<value value="K030182367" />
					<assigner>
                        <reference value="Organization/4a834cd3-9237-957f-44b3-f87647692762" />
                        <display value="Bayerische Beamtenkrankenkasse"/>
                    </assigner>
				</identifier>
				<name>
					<use value="official"/>
					<family value="Königsstein">
						<extension url="http://hl7.org/fhir/StructureDefinition/humanname-own-name">
							<valueString value="Königsstein"/>
						</extension>
					</family>
					<given value="Ludger"/>
				</name>
				<birthDate value="1935-06-22"/>
				<address>
					<type value="both"/>
					<line value="Blumenweg">
						<extension url="http://hl7.org/fhir/StructureDefinition/iso21090-ADXP-streetName">
							<valueString value="Blumenweg"/>
						</extension>
					</line>
					<city value="Esens"/>
					<postalCode value="26427"/>
					<country value="D"/>
				</address>
			</Patient>
		</resource>
	</entry>
	<entry>
		<fullUrl value="http://pvs.praxis.local/fhir/9f6eef2a-2234-482a-8044-9daf0858a444"/>
		<resource>
			<Coverage xmlns="http://hl7.org/fhir">
				<id value="9f6eef2a-2234-482a-8044-9daf0858a444"/>
				<meta>
					<profile value="https://fhir.kbv.de/StructureDefinition/KBV_PR_FOR_Coverage|1.0.3"/>
				</meta>
				<extension url="http://fhir.de/StructureDefinition/gkv/besondere-personengruppe">
					<valueCoding>
						<system value="https://fhir.kbv.de/CodeSystem/KBV_CS_SFHIR_KBV_PERSONENGRUPPE"/>
						<code value="00"/>
					</valueCoding>
				</extension>
				<extension url="http://fhir.de/StructureDefinition/gkv/dmp-kennzeichen">
					<valueCoding>
						<system value="https://fhir.kbv.de/CodeSystem/KBV_CS_SFHIR_KBV_DMP"/>
						<code value="06"/>
					</valueCoding>
				</extension>
				<extension url="http://fhir.de/StructureDefinition/gkv/versichertenart">
					<valueCoding>
						<system value="https://fhir.kbv.de/CodeSystem/KBV_CS_SFHIR_KBV_VERSICHERTENSTATUS"/>
						<code value="5"/>
					</valueCoding>
				</extension>
				<extension url="http://fhir.de/StructureDefinition/gkv/wop">
					<valueCoding>
						<system value="https://fhir.kbv.de/CodeSystem/KBV_CS_SFHIR_ITA_WOP"/>
						<code value="17"/>
					</valueCoding>
				</extension>
				<status value="active"/>
				<type>
					<coding>
						<system value="http://fhir.de/CodeSystem/versicherungsart-de-basis"/>
						<code value="PKV"/>
					</coding>
				</type>
				<beneficiary>
					<reference value="Patient/406ab579-59d6-43fc-91f6-8b4cc31e2957"/>
				</beneficiary>
				<payor>
					<identifier>
						<use value="official"/>
						<system value="http://fhir.de/NamingSystem/arge-ik/iknr"/>
						<value value="168141347"/>
					</identifier>
					<display value="Bayerische Beamtenkrankenkasse"/>
				</payor>
			</Coverage>
		</resource>
	</entry>
	<entry>
        <fullUrl value="http://pvs.praxis.local/fhir/Organization/4a834cd3-9237-957f-44b3-f87647692762" />
        <resource>
            <Organization>
                <id value="4a834cd3-9237-957f-44b3-f87647692762" />
                <meta>
                    <profile value="https://fhir.kbv.de/StructureDefinition/KBV_PR_FOR_Organization|1.0.3" />
                </meta>
                <identifier>
                    <type>
                        <coding>
                            <system value="http://terminology.hl7.org/CodeSystem/v2-0203" />
                            <code value="XX" />
                        </coding>
                    </type>
                    <system value="http://fhir.de/NamingSystem/arge-ik/iknr" />
                    <value value="168141347" />
                </identifier>
                <name value="Bayerische Beamtenkrankenkasse" />
                <telecom>
                    <system value="phone" />
                    <value value="0301111111" />
                </telecom>
            </Organization>
        </resource>
    </entry>
</Bundle>
